<Bundle xmlns="http://hl7.org/fhir" xmlns:xsi="http://www.w3.org/2001/XMLSchema-instance"
	xsi:schemaLocation="http://hl7.org/fhir http://www.hl7.org/fhir/fhir-base.xsd">
	<type value="transaction" />
	<entry>
		<fullUrl value="urn:uuid:bb73165c-c7b9-4342-8e28-531f07fa7735" />
		<resource>
			<Organization xmlns="http://hl7.org/fhir">
				<identifier>
					<system value="http://highmed.org/fhir/CodeSystem/organization" />
					<value value="Test_TTP" />
				</identifier>
				<active value="true" />
				<type>
					<coding>
						<system value="http://highmed.org/fhir/CodeSystem/organization-type" />
						<code value="TTP" />
					</coding>
				</type>
				<name value="Test TTP" />
				<endpoint>
					<reference value="urn:uuid:b879e904-d666-45de-a995-accdd4429b79" />
					<type value="Endpoint" />
				</endpoint>
				<extension url="http://highmed.org/fhir/StructureDefinition/certificate-thumbprint">
					<valueString
						value="532a7736fd2187c4895765fa211cd076e70d0e9405c466b650ca3c2e89b9cd796a063f1840f26b6422b08aafdaff677fb53bec14916185355ae1b6ee1b0afc5f" />
				</extension>
			</Organization>
		</resource>
		<request>
			<method value="POST" />
			<url value="Organization" />
			<ifNoneExist value="identifier=http://highmed.org/fhir/CodeSystem/organization|Test_TTP" />
		</request>
	</entry>
	<entry>
		<fullUrl value="urn:uuid:cf62edc2-cc5d-43ed-ac0e-caf09f7326c3" />
		<resource>
			<Organization xmlns="http://hl7.org/fhir">
				<identifier>
					<system value="http://highmed.org/fhir/CodeSystem/organization" />
					<value value="Test_MeDIC_1" />
				</identifier>
				<active value="true" />
				<type>
					<coding>
						<system value="http://highmed.org/fhir/CodeSystem/organization-type" />
						<code value="MeDIC" />
					</coding>
				</type>
				<name value="Test MeDIC 1" />
				<endpoint>
					<reference value="urn:uuid:6b405f8a-a201-475d-8dd7-4d73314855e1" />
					<type value="Endpoint" />
				</endpoint>
				<extension url="http://highmed.org/fhir/StructureDefinition/certificate-thumbprint">
					<valueString
						value="f143826e22f1a95830ab32dde7b388c154039ed0633c9b0d1526078a9ee7f403540e3cd3459331a3c2caf72e006daff2f71ab7cd2136272e5e022ef392c32246" />
				</extension>
			</Organization>
		</resource>
		<request>
			<method value="POST" />
			<url value="Organization" />
			<ifNoneExist value="identifier=http://highmed.org/fhir/CodeSystem/organization|Test_MeDIC_1" />
		</request>
	</entry>
	<entry>
		<fullUrl value="urn:uuid:55901940-02db-40bf-9a6e-bdfdd0ddb7bf" />
		<resource>
			<Organization xmlns="http://hl7.org/fhir">
				<identifier>
					<system value="http://highmed.org/fhir/CodeSystem/organization" />
					<value value="Test_MeDIC_2" />
				</identifier>
				<active value="true" />
				<type>
					<coding>
						<system value="http://highmed.org/fhir/CodeSystem/organization-type" />
						<code value="MeDIC" />
					</coding>
				</type>
				<name value="Test MeDIC 2" />
				<endpoint>
					<reference value="urn:uuid:1712b523-1783-40fa-a317-375415686457" />
					<type value="Endpoint" />
				</endpoint>
				<extension url="http://highmed.org/fhir/StructureDefinition/certificate-thumbprint">
					<valueString
						value="e4af921e6cbc35032ddb21b8a36f366ff7605bdb20bddddcbca6bcc437239b58e9189dfea3a66c584a9bb0a6006c243031c6c5504a43d059afa629d24f8b55bb" />
				</extension>
			</Organization>
		</resource>
		<request>
			<method value="POST" />
			<url value="Organization" />
			<ifNoneExist value="identifier=http://highmed.org/fhir/CodeSystem/organization|Test_MeDIC_2" />
		</request>
	</entry>
	<entry>
		<fullUrl value="urn:uuid:a49a45d2-88cc-4830-a028-413d68d9a439" />
		<resource>
			<Organization xmlns="http://hl7.org/fhir">
				<identifier>
					<system value="http://highmed.org/fhir/CodeSystem/organization" />
					<value value="Test_MeDIC_3" />
				</identifier>
				<active value="true" />
				<type>
					<coding>
						<system value="http://highmed.org/fhir/CodeSystem/organization-type" />
						<code value="MeDIC" />
					</coding>
				</type>
				<name value="Test MeDIC 3" />
				<endpoint>
					<reference value="urn:uuid:1c3d45f9-5aa8-4979-892e-bf2d29b398e0" />
					<type value="Endpoint" />
				</endpoint>
				<extension url="http://highmed.org/fhir/StructureDefinition/certificate-thumbprint">
					<valueString
						value="821be11d134e7070e3bcc402032fdab9d8ee865ef2b98ac70605864572fcd4e13cd55cb9d3841785a497234f1fb8447434cd07ca47e524db36fcfcccdea0d56f" />
				</extension>
			</Organization>
		</resource>
		<request>
			<method value="POST" />
			<url value="Organization" />
			<ifNoneExist value="identifier=http://highmed.org/fhir/CodeSystem/organization|Test_MeDIC_3" />
		</request>
	</entry>
	<entry>
		<fullUrl value="urn:uuid:b879e904-d666-45de-a995-accdd4429b79" />
		<resource>
			<Endpoint xmlns="http://hl7.org/fhir">
				<identifier>
					<system value="http://highmed.org/fhir/CodeSystem/endpoint" />
					<value value="Test_TTP_Endpoint" />
				</identifier>
				<status value="active" />
				<connectionType>
					<system value="http://terminology.hl7.org/CodeSystem/endpoint-connection-type" />
					<code value="hl7-fhir-rest" />
				</connectionType>
				<name value="Test TTP Endpoint" />
				<managingOrganization>
					<type value="Organization" />
					<identifier>
						<system value="http://highmed.org/fhir/CodeSystem/organization" />
						<value value="Test_TTP" />
					</identifier>
				</managingOrganization>
				<payloadType>
					<coding>
						<system value="http://hl7.org/fhir/resource-types" />
						<code value="Task" />
					</coding>
				</payloadType>
				<payloadMimeType value="application/fhir+json" />
				<payloadMimeType value="application/fhir+xml" />
				<address value="https://ttp/fhir" />
			</Endpoint>
		</resource>
		<request>
			<method value="POST" />
			<url value="Endpoint" />
			<ifNoneExist value="identifier=http://highmed.org/fhir/CodeSystem/endpoint|Test_TTP_Endpoint" />
		</request>
	</entry>
	<entry>
		<fullUrl value="urn:uuid:6b405f8a-a201-475d-8dd7-4d73314855e1" />
		<resource>
			<Endpoint xmlns="http://hl7.org/fhir">
				<identifier>
					<system value="http://highmed.org/fhir/CodeSystem/endpoint" />
					<value value="Test_MeDIC_1_Endpoint" />
				</identifier>
				<status value="active" />
				<connectionType>
					<system value="http://terminology.hl7.org/CodeSystem/endpoint-connection-type" />
					<code value="hl7-fhir-rest" />
				</connectionType>
				<name value="Test MeDIC 1 Endpoint" />
				<managingOrganization>
					<type value="Organization" />
					<identifier>
						<system value="http://highmed.org/fhir/CodeSystem/organization" />
						<value value="Test_MeDIC_1" />
					</identifier>
				</managingOrganization>
				<payloadType>
					<coding>
						<system value="http://hl7.org/fhir/resource-types" />
						<code value="Task" />
					</coding>
				</payloadType>
				<payloadMimeType value="application/fhir+json" />
				<payloadMimeType value="application/fhir+xml" />
				<address value="https://medic1/fhir" />
			</Endpoint>
		</resource>
		<request>
			<method value="POST" />
			<url value="Endpoint" />
			<ifNoneExist value="identifier=http://highmed.org/fhir/CodeSystem/endpoint|Test_MeDIC_1_Endpoint" />
		</request>
	</entry>
	<entry>
		<fullUrl value="urn:uuid:1712b523-1783-40fa-a317-375415686457" />
		<resource>
			<Endpoint xmlns="http://hl7.org/fhir">
				<identifier>
					<system value="http://highmed.org/fhir/CodeSystem/endpoint" />
					<value value="Test_MeDIC_2_Endpoint" />
				</identifier>
				<status value="active" />
				<connectionType>
					<system value="http://terminology.hl7.org/CodeSystem/endpoint-connection-type" />
					<code value="hl7-fhir-rest" />
				</connectionType>
				<name value="Test MeDIC 2 Endpoint" />
				<managingOrganization>
					<type value="Organization" />
					<identifier>
						<system value="http://highmed.org/fhir/CodeSystem/organization" />
						<value value="Test_MeDIC_2" />
					</identifier>
				</managingOrganization>
				<payloadType>
					<coding>
						<system value="http://hl7.org/fhir/resource-types" />
						<code value="Task" />
					</coding>
				</payloadType>
				<payloadMimeType value="application/fhir+json" />
				<payloadMimeType value="application/fhir+xml" />
				<address value="https://medic2/fhir" />
			</Endpoint>
		</resource>
		<request>
			<method value="POST" />
			<url value="Endpoint" />
			<ifNoneExist value="identifier=http://highmed.org/fhir/CodeSystem/endpoint|Test_MeDIC_2_Endpoint" />
		</request>
	</entry>
	<entry>
		<fullUrl value="urn:uuid:1c3d45f9-5aa8-4979-892e-bf2d29b398e0" />
		<resource>
			<Endpoint xmlns="http://hl7.org/fhir">
				<identifier>
					<system value="http://highmed.org/fhir/CodeSystem/endpoint" />
					<value value="Test_MeDIC_3_Endpoint" />
				</identifier>
				<status value="active" />
				<connectionType>
					<system value="http://terminology.hl7.org/CodeSystem/endpoint-connection-type" />
					<code value="hl7-fhir-rest" />
				</connectionType>
				<name value="Test MeDIC 3 Endpoint" />
				<managingOrganization>
					<type value="Organization" />
					<identifier>
						<system value="http://highmed.org/fhir/CodeSystem/organization" />
						<value value="Test_MeDIC_3" />
					</identifier>
				</managingOrganization>
				<payloadType>
					<coding>
						<system value="http://hl7.org/fhir/resource-types" />
						<code value="Task" />
					</coding>
				</payloadType>
				<payloadMimeType value="application/fhir+json" />
				<payloadMimeType value="application/fhir+xml" />
				<address value="https://medic3/fhir" />
			</Endpoint>
		</resource>
		<request>
			<method value="POST" />
			<url value="Endpoint" />
			<ifNoneExist value="identifier=http://highmed.org/fhir/CodeSystem/endpoint|Test_MeDIC_3_Endpoint" />
		</request>
	</entry>
</Bundle>